Temperature (K)	Field (T)	Angle (°)	Ic/w (A/cm)	Ic (A)	n	V0 (µV)	V1 (µV/A)	Hall field (T)	Hall angle (°)	Set temperature (K)	Set field (T)	Set angle (°)
19.99	7.000	0.00	812.59	325.04	21.68	-0.14117	0.01873	7.116	-0.19	20.00	7.000	0.00
19.99	7.000	5.00	815.04	326.02	22.73	-0.51690	0.02289	7.118	4.69	20.00	7.000	5.00
20.01	7.000	10.00	813.95	325.58	22.56	-0.56806	0.02585	7.118	9.58	20.00	7.000	10.00
20.00	7.000	15.00	816.11	326.45	22.62	-0.90659	0.03031	7.114	14.42	20.00	7.000	15.00
20.01	7.000	20.00	814.83	325.93	21.53	-1.00000	0.03155	7.109	19.27	20.00	7.000	20.00
20.00	7.000	25.00	820.06	328.03	23.03	-1.00000	0.03257	7.103	24.13	20.00	7.000	25.00
20.01	7.000	30.00	834.91	333.96	22.73	-0.25683	0.03119	7.094	28.99	20.00	7.000	30.00
20.01	7.000	35.00	843.70	337.48	21.91	-1.00000	0.03182	7.084	33.86	20.00	7.000	35.00
20.00	7.000	40.00	856.57	342.63	21.55	1.00000	0.02361	7.074	38.73	20.00	7.000	40.00
20.00	7.000	45.00	873.61	349.44	20.76	0.58161	0.02204	7.062	43.60	20.00	7.000	45.00
20.00	7.000	50.00	893.58	357.43	19.66	0.46929	0.01871	7.047	48.49	20.00	7.000	50.00
20.00	7.000	55.00	926.69	370.68	19.37	-1.00000	0.01949	7.032	53.39	20.00	7.000	55.00
20.01	7.000	60.00	941.82	376.73	16.20	-0.97876	0.01386	7.020	58.27	20.00	7.000	60.00
20.01	7.000	65.00	994.74	397.90	15.92	-0.69101	0.00977	7.009	63.22	20.00	7.000	65.00
20.00	7.000	70.00	1070.40	428.16	15.69	-0.42430	0.00641	6.998	68.18	20.00	7.000	70.00
20.00	7.000	75.00	1181.80	472.72	15.45	-0.20905	0.00389	6.987	73.15	20.00	7.000	75.00
20.01	7.000	78.00	1286.48	514.59	15.76	-0.14658	0.00267	6.981	76.12	20.00	7.000	78.00
20.01	7.000	81.00	1428.97	571.59	15.93	-0.03835	0.00137	6.973	79.11	20.00	7.000	81.00
20.01	7.000	84.00	1671.69	668.68	17.28	0.04672	0.00027	6.966	82.10	20.00	7.000	84.00
20.00	7.000	86.00	1917.46	766.98	18.64	0.16113	-0.00060	6.962	84.13	20.00	7.000	86.00
20.00	7.000	88.00	2293.87	917.55	22.29	0.39836	-0.00171	6.960	86.13	20.00	7.000	88.00	Current limit exceeded.
19.98	7.000	90.00	--	--	--	--	--	6.954	88.05	20.00	7.000	90.00	Current limit exceeded.
19.99	7.000	92.00	--	--	--	--	--	6.939	90.08	20.00	7.000	92.00	Current limit exceeded.
19.99	7.000	94.00	2353.49	941.40	33.90	1.00000	-0.00490	6.928	92.31	20.00	7.000	94.00	Current limit exceeded.
20.00	7.000	96.00	1998.40	799.36	25.31	1.00000	-0.00501	6.921	94.64	20.00	7.000	96.00
20.01	7.000	99.00	1646.93	658.77	21.18	0.55336	-0.00494	6.937	97.68	20.00	7.000	99.00
19.99	7.000	102.00	1440.00	576.00	19.83	0.45841	-0.00543	6.937	100.68	20.00	7.000	102.00
20.00	7.000	105.00	1312.69	525.07	19.78	0.36825	-0.00573	6.940	103.76	20.00	7.000	105.00
20.00	7.000	110.00	1166.10	466.44	19.70	0.33792	-0.00620	6.931	108.68	20.00	7.000	110.00
20.00	7.000	115.00	1077.98	431.19	20.78	0.16819	-0.00605	6.917	113.64	20.00	7.000	115.00
20.00	7.000	120.00	1013.17	405.27	21.13	-0.03063	-0.00514	6.899	118.60	20.00	7.000	120.00
20.00	7.000	125.00	964.64	385.85	21.33	-0.01241	-0.00443	6.881	123.60	20.00	7.000	125.00
20.00	7.000	130.00	935.48	374.19	23.17	-0.18039	-0.00272	6.865	128.62	20.00	7.000	130.00
20.00	7.000	135.00	900.36	360.14	22.48	-0.18418	-0.00085	6.848	133.68	20.00	7.000	135.00
20.00	7.000	140.00	877.61	351.04	23.23	-0.35346	0.00231	6.832	138.76	20.00	7.000	140.00
20.00	7.000	145.00	855.35	342.14	22.61	-0.68331	0.00670	6.816	143.84	20.00	7.000	145.00
20.00	7.000	150.00	844.48	337.79	23.24	-0.91934	0.01160	6.803	148.97	20.00	7.000	150.00
20.00	7.000	155.00	833.45	333.38	23.61	-1.00000	0.01342	6.794	154.93	20.00	7.000	155.00
20.00	7.000	160.00	829.35	331.74	24.78	-1.00000	0.01659	6.785	159.99	20.00	7.000	160.00
20.00	7.000	165.00	824.92	329.97	24.99	-1.00000	0.01965	6.776	165.03	20.00	7.000	165.00
20.00	7.000	170.00	816.11	326.44	23.57	-0.80708	0.02169	6.769	170.10	20.00	7.000	170.00
20.00	7.000	175.00	819.57	327.83	25.52	-0.41150	0.02349	6.760	175.22	20.00	7.000	175.00
20.00	7.000	180.00	821.88	328.75	26.71	-0.40869	0.02566	6.753	180.45	20.00	7.000	180.00
20.00	7.000	185.00	827.47	330.99	28.46	-0.61652	0.02927	6.752	185.63	20.00	7.000	185.00
20.00	7.000	190.00	831.73	332.69	29.66	-1.00000	0.03316	6.754	190.76	20.00	7.000	190.00
20.00	7.000	195.00	832.62	333.05	29.59	-1.00000	0.03389	6.760	195.88	20.00	7.000	195.00
20.00	7.000	200.00	828.76	331.50	26.67	-1.00000	0.03407	6.768	200.98	20.00	7.000	200.00
20.00	7.000	205.00	832.82	333.13	25.34	1.00000	0.02924	6.778	206.08	20.00	7.000	205.00
20.00	7.000	210.00	824.93	329.97	22.16	-1.00000	0.04186	6.791	210.17	20.00	7.000	210.00
20.00	7.000	215.00	829.42	331.77	19.96	1.00000	0.03019	6.805	215.16	20.00	7.000	215.00
20.00	7.000	220.00	853.81	341.52	21.52	-0.71263	0.03020	6.821	220.10	20.00	7.000	220.00
20.01	7.000	225.00	886.21	354.48	22.34	-0.77818	0.02878	6.839	225.01	20.00	7.000	225.00
20.01	7.000	230.00	910.15	364.06	21.07	-0.70663	0.02626	6.857	229.92	20.00	7.000	230.00
20.00	7.000	235.00	945.60	378.24	20.76	-0.76373	0.02352	6.876	234.80	20.00	7.000	235.00
20.01	7.000	240.00	987.09	394.83	20.21	-0.75691	0.02073	6.895	239.67	20.00	7.000	240.00
